Folder: mecanano-ml-nanomechanics-tutorial/data/nanoindent_maps (part 2)

File: Duplex Steel 3p5um.csv
Index,Load,Depth,HARDNESS,MODULUS,H/E,X Position,Y Position,Z Position
Integer,mN,nm,GPa,GPa,None,µm,µm,µm
1,9.99814,342.768,3.71158,221.011,0.01679,0,696.468,-5.88935
284,9.99857,343.684,3.69495,218.5475,0.01691,3.52425,405.9555,-3.92425
567,9.99837,317.294,4.40443,212.986,0.02068,7.00087,115.491,-2.07869
850,9.99828,341.133,3.76829,211.1339,0.01785,14.00175,524.97,-4.65289
1133,9.99868,341.242,3.73943,225.572,0.01658,17.526,234.458,-2.70625
1416,9.99879,343.175,3.68951,228.766,0.01613,24.52688,643.985,-5.46689
1699,9.99845,336.917,3.89451,200.36,0.01944,28.0035,353.473,-3.56635
1982,9.99867,320.483,4.28929,221.185,0.01939,31.52775,62.96025,-1.93304
2265,9.99871,328.963,4.09439,203.522,0.02012,38.52863,472.488,-4.48675
2548,9.99853,342.824,3.708,222.423,0.01667,42.00525,181.975,-2.60027
2831,9.9985,346.319,3.67518,197.668,0.01859,49.00613,591.455,-5.31111
3114,9.99842,330.7123,4.04693,203.653,0.01987,52.53037,300.99,-3.45115
3397,9.99817,337.158,3.87259,207.341,0.01868,56.007,10.4775,-1.8289
3680,9.99848,327.817,4.10798,210.63,0.0195,63.00787,419.957,-4.43853
3963,9.9986,346.123,3.63334,222.263,0.01635,66.53213,129.492,-2.61612
4246,9.99857,347.387,3.61684,215.369,0.01679,73.533,538.972,-5.30972
4529,9.99881,339.1117,3.78583,227.875,0.01661,77.00962,248.46,-3.3937
4812,9.99854,320.7171,4.2693,226.962,0.01881,84.0105,657.987,-6.20312
5095,9.99838,324.899,4.16667,219.92,0.01895,87.53475,367.4745,-4.31927
5378,9.9984,321.573,4.27932,212.271,0.02016,91.01138,76.962,-2.66283
5661,9.99841,333.121,3.94545,221.201,0.01784,98.01225,486.489,-5.26581
5944,9.99834,329.066,4.07164,211.7151,0.01923,101.5365,195.977,-3.37236
6227,9.99851,333.934,3.90572,231.525,0.01687,108.537,605.457,-6.13285
6510,9.99842,337.194,3.87166,207.406,0.01867,112.014,314.992,-4.29327
6793,9.99807,346.335,3.67484,197.579,0.0186,115.538,24.47925,-2.6488
7076,9.99826,340.352,3.77545,217.044,0.01739,122.539,433.959,-5.30896
7359,9.99853,325.021,4.16289,220.126,0.01891,126.016,143.494,-3.38593
7642,9.99855,338.646,3.80529,223.069,0.01706,133.017,552.974,-6.15391
7925,9.99906,291.094,5.29806,221.807,0.02389,136.541,262.461,-4.21893
8208,9.99864,347.289,3.6164,216.891,0.01667,143.542,671.989,-7.04562
8491,9.99859,329.699,4.04717,215.115,0.01881,147.018,381.476,-5.21466
8774,9.99861,326.651,4.15129,206.062,0.02015,150.543,90.96375,-3.46556
9057,9.99866,333.957,3.88675,242.564,0.01602,157.5435,500.491,-6.16402
9340,9.99862,337.434,3.83937,220.515,0.01741,161.02,209.979,-4.24591
9623,9.99827,337.864,3.85299,208.363,0.01849,168.021,619.458,-7.02617
9906,9.99859,334.634,3.91611,216.756,0.01807,171.545,328.9935,-5.15287
10189,9.99845,353.172,3.52481,196.887,0.0179,175.022,38.481,-3.48823
10472,9.99849,351.329,3.55255,203.087,0.01749,182.023,447.961,-6.20879
10755,9.99839,321.973,4.26847,211.987,0.02014,185.547,157.496,-4.26079
11038,9.99841,340.307,3.80622,202.47,0.0188,192.5,566.976,-7.04271
11321,9.99833,331.389,4.02193,206.564,0.01947,196.0245,276.463,-5.14907
11604,9.99843,341.804,3.75371,210.504,0.01783,203.025,685.9905,-7.95885
11887,9.99871,343.177,3.69064,228.002,0.01619,206.502,395.478,-6.15289
12170,9.99836,331.631,3.97089,227.741,0.01744,210.026,104.9655,-4.38324
12453,9.99898,332.5162,3.96552,219.029,0.0181,217.027,514.493,-7.0991
12736,9.9986,348.951,3.58073,216.305,0.01655,220.504,223.98,-5.0662
13019,9.99816,383.674,2.98352,177.97,0.01676,227.505,633.46,-7.94463
13302,9.9984,323.677,4.21606,213.461,0.01975,231.029,342.995,-6.10236
13585,9.99871,330.223,4.00722,227.854,0.01759,234.5055,52.48275,-4.42108
13868,9.99858,337.32,3.83556,224.075,0.01712,241.506,461.9625,-7.05802
14151,9.9984,320.108,4.30757,218.069,0.01975,245.031,171.498,-5.12114
14434,9.99879,338.904,3.79712,224.233,0.01693,252.0315,580.977,-7.97005
14717,9.99863,331.679,4.0004,212.719,0.01881,255.508,290.465,-6.02649
15000,9.99865,329.902,4.07196,202.363,0.02012,259.032,0,-4.39135
15283,9.99858,340.178,3.73961,241.073,0.01551,266.033,409.48,-7.05829
15566,9.99848,348.336,3.5815,224.043,0.01599,269.51,118.967,-5.20455
15849,9.99873,325.412,4.18242,207.414,0.02016,276.511,528.495,-7.93579
16132,9.99853,337.904,3.8435,212.506,0.01809,280.035,237.982,-5.99279
16415,9.99835,344.19,3.72296,198.334,0.01877,287.036,647.462,-8.88664
16698,9.99861,331.296,4.01033,212.7463,0.01885,290.5125,356.997,-6.98629
16981,9.99838,333.071,3.95515,217.018,0.01823,294.037,66.4845,-5.25593
17264,9.99851,342.589,3.73068,212.9,0.01752,301.038,475.964,-7.93821
17547,9.9985,330.366,4.05038,206.032,0.01966,304.514,185.499,-6.00212
17830,9.9987,329.591,3.99821,241.97,0.01652,311.515,594.979,-8.88543
18113,9.99852,333.639,3.93069,222.039,0.0177,315.039,304.467,-6.927
18396,9.99827,342.481,3.76544,197.344,0.01908,318.516,13.95413,-5.26682
18679,9.99871,331.696,3.97118,226.785,0.01751,325.517,423.4815,-7.95784
18962,9.99798,333.8012,3.94937,210.87,0.01873,329.041,132.969,-6.05044
19245,9.99874,335.619,3.85956,234.166,0.01648,336.042,542.496,-8.76746
19528,9.99856,316.601,4.40097,222.562,0.01977,339.519,251.984,-6.85467
19811,9.99811,342.92,3.75077,199.217,0.01883,346.5195,661.464,-9.75744
20094,9.99884,333.462,3.9159,232.531,0.01684,350.044,370.999,-7.85996
20377,9.99856,336.249,3.88789,210.831,0.01844,353.52,80.48625,-6.07653
20660,9.99839,350.971,3.5893,189.0584,0.01899,360.521,489.966,-8.77406
20943,9.99815,346.064,3.67478,200.547,0.01832,364.0455,199.4535,-6.79718
21226,9.99866,351.37,3.55869,199.493,0.01784,371.046,608.981,-9.64266
21509,9.99881,340.906,3.76658,214.903,0.01753,374.523,318.468,-7.7071
21792,9.99835,336.339,3.89416,206.843,0.01883,378.047,27.95588,-6.09978
22075,9.99859,345.038,3.66738,216.658,0.01693,385.0005,437.483,-8.71977
22358,9.99854,325.9389,4.14004,219.026,0.0189,388.525,146.971,-6.82329
22641,9.9986,338.57,3.83201,210.195,0.01823,395.526,556.498,-9.55195
22924,9.99869,330.817,3.99909,224.102,0.01784,399.002,265.986,-7.63407
23207,9.99864,325.5461,4.1821,206.056,0.0203,406.003,675.465,-10.48099
23490,9.99858,339.47,3.77246,230.708,0.01635,409.527,384.953,-8.58816
23773,9.99862,346.449,3.63674,215.9745,0.01684,413.004,94.488,-6.74505
24056,9.99869,337.696,3.82257,226.258,0.01689,420.005,503.968,-9.51327
24339,9.9982,344.483,3.70712,202.526,0.0183,423.529,213.455,-7.46389
24622,9.9988,348.748,3.58929,213.961,0.01678,430.53,622.983,-10.30176
24905,9.99859,346.403,3.64518,211.833,0.01721,434.007,332.47,-8.39248
25188,9.99866,338.8348,3.80558,220.447,0.01726,437.531,41.95763,-6.7308
25471,9.99862,335.523,3.88587,220.807,0.0176,444.532,451.485,-9.4049
25754,9.99836,338.643,3.79188,230.8,0.01643,448.008,160.9725,-7.48081
26037,9.99847,337.3589,3.86469,208.76,0.01851,455.009,570.5,-10.24553
26320,9.99869,333.298,3.93728,223.136,0.01765,458.5335,279.987,-8.32762
26603,9.99881,343.5695,3.69901,217.809,0.01698,465.534,689.467,-11.28042
26886,9.99873,346.996,3.64699,203.905,0.01789,469.011,398.955,-9.23255
27169,9.9992,346.084,3.62382,228.925,0.01583,472.535,108.49,-7.45069
27452,9.9984,337.045,3.88903,201.328,0.01932,479.536,517.9695,-10.18671
27735,9.99827,334.838,3.96471,193.418,0.0205,483.013,227.457,-8.18989
28018,9.9982,335.611,3.91441,205.945,0.01901,490.014,636.984,-11.07418
28301,9.99873,327.638,4.10314,214.854,0.0191,493.538,346.472,-9.15017
28584,9.99839,343.009,3.75461,196.618,0.0191,497.0145,55.95938,-7.43401
28867,9.99858,333.0036,3.95398,218.474,0.0181,504.015,465.487,-10.1248
29150,9.99887,340.002,3.75216,235.611,0.01593,507.54,174.974,-8.20972
29433,9.99847,332.867,3.96647,214.149,0.01852,514.5405,584.454,-11.06307
29716,9.99861,353.808,3.48446,211.656,0.01646,518.017,293.989,-9.10169
29999,9.99829,332.3815,3.94091,233.667,0.01687,521.541,3.47663,-7.46174
30282,9.99863,350.015,3.54621,223.358,0.01588,528.542,412.956,-10.08365
30565,9.9984,340.082,3.8038,206.1017,0.01846,532.019,122.4915,-8.19979
30848,9.99841,326.925,4.12102,215.454,0.01913,539.02,531.971,-11.01128
31131,9.99844,347.354,3.64453,201.048,0.01813,542.544,241.459,-9.00867
31414,9.99859,337.115,3.81674,238.0838,0.01603,549.545,650.986,-11.96364
31697,9.99824,339.498,3.80812,210.7803,0.01807,553.0215,360.474,-10.00433
31980,9.99843,347.6737,3.61179,214.579,0.01683,556.546,69.96113,-8.22853
32263,9.99855,342.958,3.70073,224.894,0.01646,563.547,479.4885,-10.99281
32546,9.99831,331.704,3.9827,220.7222,0.01804,567.023,188.976,-8.99216
32829,9.99833,332.875,3.97048,212.162,0.01871,574.024,598.456,-11.8242
33112,9.99849,334.786,3.91035,217.689,0.01796,577.501,307.991,-9.96289
33395,9.99856,334.613,3.96125,197.053,0.0201,581.025,17.47838,-8.20267
33678,9.99832,332.647,3.98341,208.993,0.01906,588.026,426.958,-10.91051
33961,9.99853,329.187,4.048,221.056,0.01831,591.5025,136.493,-9.07134
34244,9.99907,346.492,3.6412,213.031,0.01709,598.503,545.973,-11.80082
34527,9.99852,348.805,3.59256,211.335,0.017,602.028,255.4605,-9.81868
34810,9.99818,335.601,3.88078,222.358,0.01745,609.0285,664.988,-12.75413
35093,9.99872,343.467,3.69555,221.093,0.01671,612.505,374.475,-10.80742
35376,9.99853,343.1657,3.70442,219.943,0.01684,616.029,83.96288,-8.96806
35659,9.99803,347.932,3.61129,211.545,0.01707,623.03,493.49,-11.73583
35942,9.99858,334.998,3.87894,231.724,0.01674,626.507,202.978,-9.75337
36225,9.99876,348.503,3.58005,222.73,0.01607,633.508,612.4575,-12.61978
36508,9.99828,346.606,3.66054,201.478,0.01817,637.032,321.993,-10.63823
36791,9.9983,346.105,3.67597,199.568,0.01842,640.509,31.48013,-8.98855
37074,9.99824,336.117,3.88658,212.963,0.01825,647.5095,440.96,-11.62805
37357,9.99847,333.803,3.93512,217.716,0.01807,651.034,150.495,-9.75653
37640,9.99872,341.073,3.75943,216.587,0.01736,658.035,559.975,-12.56574
37923,9.9986,348.3365,3.60386,210.818,0.01709,661.511,269.462,-10.55117
38206,9.99815,322.411,4.27199,205.772,0.02076,668.512,678.99,-13.46885
38489,9.99865,336.678,3.86669,215.9886,0.0179,672.036,388.477,-11.58189
38772,9.99826,319.394,4.32069,221.28,0.01953,675.513,97.96463,-9.73674
39055,9.9982,343.588,3.70135,216.126,0.01713,682.514,507.492,-12.48515
39338,9.9986,345.226,3.65364,222.166,0.01645,686.038,216.9795,-10.44961
39621,9.99854,336.961,3.89207,200.948,0.01937,693.039,626.459,-13.3581
39904,9.9984,339.965,3.76513,228.04,0.01651,696.516,335.994,-11.38568
40000,9.99863,340.539,3.75599,225.524,0.01665,696.516,0,-9.39701

File: Duplex Steel 5um.csv
Index,Load,Depth,HARDNESS,MODULUS,H/E,X Position,Y Position,Z Position
Integer,mN,nm,GPa,GPa,None,µm,µm,µm
1,19.99713,494.654,3.67673,223.18,0.01647,0,994.9815,-8.36395
289,19.99802,500.768,3.5803,223.508,0.01602,5.00063,554.974,-4.99561
577,19.99811,494.876,3.66753,226.751,0.01617,10.00125,114.967,-2.03524
865,19.99809,494.794,3.66616,228.436,0.01605,20.0025,674.989,-5.80729
1153,19.99796,524.683,3.24713,217.871,0.0149,25.00312,234.982,-2.74028
1441,19.99741,510.22,3.45759,211.578,0.01634,35.00437,794.9565,-6.92373
1729,19.99766,483.299,3.88222,215.017,0.01806,40.005,354.997,-3.78274
2017,19.99714,493.187,3.69896,224.04,0.01651,50.00625,914.9715,-8.04327
2305,19.99792,500.73,3.58711,219.628,0.01633,55.00687,474.964,-4.80595
2593,19.99776,505.361,3.52426,214.89,0.0164,60.0075,34.95675,-2.01212
2881,19.99743,499.073,3.62646,211.731,0.01713,70.00875,594.979,-5.70739
3169,19.99775,496.82,3.67226,206.481,0.01778,75.00938,154.972,-2.83885
3457,19.9976,472.723,4.04561,228.981,0.01767,85.01062,714.994,-6.86312
3745,19.99813,495.735,3.6242,247.204,0.01466,90.01125,274.987,-3.81069
4033,19.99772,483.109,3.86926,223.439,0.01732,100.0125,834.9615,-8.01389
4321,19.998,476.4447,3.96549,235.534,0.01684,105.013,394.954,-4.82875
4609,19.99806,504.607,3.51762,226.3992,0.01554,115.014,954.9765,-9.15135
4897,19.99759,494.4324,3.69564,214.478,0.01723,120.015,514.969,-5.79289
5185,19.99774,478.293,3.94873,226.425,0.01744,125.016,74.96175,-3.00928
5473,19.99721,490.332,3.81103,192.209,0.01983,135.017,634.984,-6.82465
5761,19.99787,490.21,3.73572,231.318,0.01615,140.0175,194.977,-3.76576
6049,19.9981,496.0328,3.65087,225.6625,0.01618,150.019,754.999,-7.98824
6337,19.99777,487.008,3.81496,216.659,0.01761,155.019,314.992,-4.79513
6625,19.99811,494.89,3.64957,238.412,0.01531,165.021,874.9665,-9.08215
6913,19.99814,486.265,3.78968,238.651,0.01588,170.021,434.959,-5.85505
7201,19.99777,497.602,3.64381,215.063,0.01694,180.0225,994.9815,-10.09237
7489,19.99789,493.524,3.67188,237.963,0.01543,185.023,554.974,-6.84352
7777,19.99792,495.644,3.68688,208.737,0.01766,190.024,114.967,-3.89691
8065,19.99789,489.175,3.77421,218.889,0.01724,200.025,674.989,-7.80823
8353,19.99763,469.649,4.10992,225.8128,0.0182,205.026,234.982,-4.7823
8641,19.99766,500.479,3.62352,201.645,0.01797,215.027,794.9565,-8.97774
8929,19.99817,495.9232,3.62909,241.413,0.01503,220.0275,354.997,-5.84429
9217,19.99789,515.214,3.39135,208.1552,0.01629,230.029,914.9715,-10.03841
9505,19.99723,508.571,3.50218,200.088,0.0175,235.029,474.964,-6.8566
9793,19.99777,483.486,3.88323,212.928,0.01824,240.03,34.95675,-4.0435
10081,19.99802,489.948,3.75964,219.823,0.0171,250.031,594.979,-7.80247
10369,19.99762,485.728,3.81146,230.699,0.01652,255.032,154.972,-4.86545
10657,19.99811,479.266,3.9229,231.106,0.01697,265.033,714.994,-8.94747
10945,19.99781,491.0264,3.73716,222.414,0.0168,270.034,274.987,-5.79203
11233,19.9974,485.06,3.84128,220.315,0.01744,280.035,834.9615,-10.09885
11521,19.99553,1062.67,0.78293,96.04476,0.00815,285.036,394.954,-6.1278
11809,19.99789,483.158,3.87748,218.677,0.01773,295.037,954.9765,-11.14025
12097,19.99741,488.327,3.81869,203.777,0.01874,300.0375,514.969,-7.83962
12385,19.99782,486.359,3.81791,220.976,0.01728,305.038,74.96175,-4.99994
12673,19.99785,485.559,3.83397,219.697,0.01745,315.039,634.984,-8.81869
12961,19.99775,471.84,4.05696,231.676,0.01751,320.04,194.977,-5.79471
13249,19.99807,480.687,3.92069,218.859,0.01791,330.041,754.999,-9.99827
13537,19.99772,491.6693,3.7371,216.5175,0.01726,335.042,314.992,-6.83125
13825,19.99821,500.703,3.56522,234.272,0.01522,345.043,874.9665,-11.14271
14113,19.99806,490.447,3.70814,247.2898,0.015,350.044,434.959,-7.9246
14401,19.99777,496.099,3.64138,231.011,0.01576,360.045,994.9815,-12.19974
14689,19.99738,531.847,3.19396,191.1514,0.01671,365.046,554.974,-8.85019
14977,19.99808,495.099,3.67904,217.784,0.01689,370.046,114.967,-6.02353
15265,19.99771,523.8209,3.27834,204.393,0.01604,380.0475,674.989,-9.87909
15553,19.99758,477.42,3.9787,219.157,0.01815,385.0005,234.982,-6.79011
15841,19.99808,491.097,3.72091,231.526,0.01607,395.002,794.9565,-11.08314
16129,19.99804,498.535,3.59759,234.909,0.01531,400.002,354.997,-7.91522
16417,19.99787,499.977,3.59274,223.342,0.01609,410.004,914.9715,-12.27765
16705,19.99758,496.413,3.66065,216.21,0.01693,415.004,474.964,-8.90106
16993,19.99778,482.91,3.8942,212.52,0.01832,420.005,34.95675,-6.137
17281,19.99785,473.946,4.05646,212.861,0.01906,430.006,594.979,-9.8737
17569,19.99829,503.1809,3.54008,225.749,0.01568,435.007,154.972,-6.93456
17857,19.99793,523.638,3.26964,211.768,0.01544,445.008,714.994,-11.00138
18145,19.99764,480.823,3.91394,221.024,0.01771,450.009,274.987,-7.87089
18433,19.99743,471.556,4.10842,209.974,0.01957,460.01,834.9615,-12.22602
18721,19.99809,494.8649,3.67803,220.533,0.01668,465.0105,394.954,-8.94446
19009,19.99774,479.105,3.96654,210.488,0.01884,475.012,954.9765,-13.2575
19297,19.99773,496.856,3.6436,222.084,0.01641,480.012,514.969,-9.92438
19585,19.99813,505.449,3.51595,219.254,0.01604,485.013,74.96175,-7.15976
19873,19.99775,494.827,3.65155,237.69,0.01536,495.014,634.984,-10.94
20161,19.99772,497.965,3.62778,221.071,0.01641,500.015,194.977,-7.85913
20449,19.99786,499.006,3.58414,239.282,0.01498,510.016,754.999,-12.09072
20737,19.99753,511.22,3.43857,214.365,0.01604,515.017,314.992,-8.8415
21025,19.99793,494.487,3.66436,232.723,0.01575,525.018,874.9665,-13.18535
21313,19.99805,473.068,4.03764,229.846,0.01757,530.019,434.959,-9.90561
21601,19.9971,498.85,3.6256,214.131,0.01693,540.02,994.9815,-14.25431
21889,19.99831,474.762,4.01118,227.361,0.01764,545.0205,554.974,-10.93869
22177,19.9974,516.6429,3.35786,216.738,0.01549,550.021,114.967,-7.95372
22465,19.99804,481.608,3.88148,231.232,0.01679,560.022,674.989,-11.92133
22753,19.99747,1115.88,0.71331,82.34517,0.00866,565.023,234.982,-8.27429
23041,19.99771,494.344,3.71896,203.265,0.0183,575.024,794.9565,-13.14617
23329,19.9982,498.816,3.60787,225.205,0.01602,580.025,354.997,-9.90765
23617,19.99813,490.742,3.72604,231.953,0.01606,590.026,914.9715,-14.32507
23905,19.99777,491.886,3.74626,209.829,0.01785,595.027,474.964,-10.98601
24193,19.9978,494.836,3.66977,225.72,0.01626,600.027,34.95675,-8.15109
24481,19.99777,496.794,3.67659,204.503,0.01798,610.029,594.979,-11.98401
24769,19.99777,471.189,4.09613,218.468,0.01875,615.029,154.972,-9.06654
25057,19.9981,476.675,3.97872,226.043,0.0176,625.0305,714.994,-13.09504
25345,19.99757,484.007,3.85971,220.208,0.01753,630.031,274.987,-9.94855
25633,19.99789,501.146,3.57713,221.826,0.01613,640.032,834.9615,-14.41019
25921,19.99824,487.9586,3.76763,234.691,0.01605,645.033,394.954,-11.11305
26209,19.9977,507.377,3.52454,197.846,0.01781,655.034,954.9765,-15.43608
26497,19.99793,502.269,3.58719,205.984,0.01741,660.035,514.969,-12.07081
26785,19.99779,504.113,3.5129,234.846,0.01496,665.0355,74.96175,-9.24773
27073,19.99816,520.984,3.29918,216.114,0.01527,675.037,634.984,-13.12241
27361,19.99748,472.386,4.06293,223.432,0.01818,680.037,194.977,-10.10178
27649,19.99834,489.015,3.7535,232.574,0.01614,690.039,754.999,-14.31827
27937,19.9981,474.9166,4.00571,228.717,0.01751,695.039,314.992,-11.11661
28225,19.99791,497.139,3.65358,213.7301,0.01709,705.0405,874.9665,-15.47001
28513,19.99798,487.9945,3.7776,228.194,0.01655,710.041,434.959,-12.2282
28801,19.99738,506.771,3.53148,198.956,0.01775,720.042,994.9815,-16.6174
29089,19.99763,502.682,3.57871,207.078,0.01728,725.043,554.974,-13.22497
29377,19.998,469.2777,4.11494,226.862,0.01814,730.044,114.967,-10.34761
29665,19.99732,482.361,3.88774,220.513,0.01763,740.045,674.989,-14.27225
29953,19.99782,505.919,3.52427,209.928,0.01679,745.0455,234.982,-11.14508
30241,19.99774,503.278,3.55447,215.693,0.01648,755.047,794.9565,-15.48069
30529,19.99748,472.467,4.07585,216.633,0.01881,760.047,354.997,-12.26531
30817,19.99767,495.991,3.66608,216.968,0.0169,770.001,914.9715,-16.6701
31105,19.99768,498.285,3.61728,224.436,0.01612,775.002,474.964,-13.24825
31393,19.99836,506.062,3.49935,224.133,0.01561,780.002,34.95675,-10.48407
31681,19.99789,504.7291,3.54911,206.12,0.01722,790.0035,594.979,-14.25293
31969,19.99703,481.664,3.88775,227.02,0.01713,795.004,154.972,-11.27845
32257,19.9981,497.847,3.62819,221.9942,0.01634,805.005,714.994,-15.45499
32545,19.99787,490.706,3.7234,233.972,0.01591,810.006,274.987,-12.28513
32833,19.99767,487.923,3.78656,223.6704,0.01693,820.007,834.9615,-16.5877
33121,19.99781,473.11,4.05159,222.386,0.01822,825.008,394.954,-13.29235
33409,19.99783,503.475,3.55326,214.634,0.01655,835.009,954.9765,-17.72623
33697,19.99798,468.844,4.12932,223.945,0.01844,840.01,514.969,-14.34799
33985,19.99759,488.739,3.77012,225.249,0.01674,845.01,74.96175,-11.43996
34273,19.99805,484.243,3.82758,236.298,0.0162,855.012,634.984,-15.35998
34561,19.99762,510.209,3.42921,230.7578,0.01486,860.012,194.977,-12.26688
34849,19.99707,498.494,3.63092,214.299,0.01694,870.0135,754.999,-16.48283
35137,19.99814,498.935,3.64077,205.339,0.01773,875.014,314.992,-13.28768
35425,19.9981,509.629,3.44285,227.003,0.01517,885.015,874.9665,-17.69751
35713,19.99744,497.667,3.63593,218.975,0.0166,890.016,434.959,-14.31827
36001,19.99751,508.316,3.46567,224.334,0.01545,900.017,994.9815,-18.71435
36289,19.99781,496.632,3.65139,219.5692,0.01663,905.018,554.974,-15.28332
36577,19.99834,481.866,3.84911,248.73,0.01548,910.0185,114.967,-12.42071
36865,19.99774,499.808,3.61717,210.517,0.01718,920.02,674.989,-16.32694
37153,19.99765,481.899,3.89138,222.896,0.01746,925.02,234.982,-13.19838
37441,19.99768,483.433,3.87142,219.306,0.01765,935.022,794.9565,-17.53654
37729,19.99802,486.591,3.78863,235.821,0.01607,940.022,354.997,-14.29971
38017,19.99792,495.029,3.6775,219.293,0.01677,950.0235,914.9715,-18.70364
38305,19.99783,497.765,3.66256,203.723,0.01798,955.024,474.964,-15.28811
38593,19.99761,490.031,3.77137,212.779,0.01772,960.025,34.95675,-12.54352
38881,19.99798,535.364,3.13908,197.274,0.01591,970.026,594.979,-16.28198
39169,19.99791,507.9,3.4773,220.681,0.01576,975.027,154.972,-13.39509
39457,19.99797,503.005,3.55986,214.99,0.01656,985.028,714.994,-17.50827
39745,19.9978,468.148,4.15583,217.958,0.01907,990.0285,274.987,-14.307
40000,19.99752,483.31,3.88166,215.18,0.01804,995.029,0,-12.68896